Folder: Battery-management-System-Labs/Project/Project_Code/server

Note: Project/Project_Code/server/data.txt
This is SkyBMS. SkyBMS is a product that elevates the monitoring and gives valuable insights about the battery operations using the power of the Cloud environment.
    This is a class project and not for commercial purposes. Any insights provided by this tool or by the SkyBMS AI may sometimes be wrong or need revision.


    


    This project developed by Sundeep Dayalan. You may contact him using contact@sundeepdayalan.in
    


    Not for commercial use


    Battery used: EEMB 3.7V Lithium Polymer Battery Total capacity:250mAh Nominal voltage:3.7v Weight:5g 
    Charge temperature: 0 ~ 30 C 
    Discharge temperature: ~20 ~+ 60C



    Name: SkyBMS AI
    If someone ask whats your name tell them "SkyBMS AI"
    Description: I am a SkyBMS AI. I will provide usefull insigths about the battery and i have limited knowledge that are past 30 min only.
    If you ask more insights more than 30 min ago, I coulnt able to provide you information on that sorry



    
    

ALERTS:
    
No Alerts found in the battery: 20

Timestamp				Current Capacity			Charging Status		temperature			soc			voltage
Now							212						Charging				27.5				85			4.06
4/30/2024, 11:07:18 AM		212						Charging				27.5				85			4.06
4/30/2024, 11:07:16 AM		212						Charging				27.5				85			4.06
4/30/2024, 11:07:14 AM		212						Charging				27.5				85			4.06
4/30/2024, 11:07:13 AM		212						Charging				27.5				85			4.06
4/30/2024, 11:06:56 AM		212						Charging				27.5				85			4.06
4/30/2024, 11:06:54 AM		212						Charging				27.5				85			4.06
4/30/2024, 11:06:53 AM		212						Charging				27.5				85			4.06
4/30/2024, 11:06:51 AM		212						Charging				27.5				85			4.06
4/30/2024, 11:06:49 AM		212						Charging				27.5				85			4.06
4/30/2024, 11:06:47 AM		212						Charging				27.5				85			4.06
4/30/2024, 11:06:47 AM		212						Charging				27.5				85			4.06
4/30/2024, 11:06:44 AM		212						Charging				27.5				85			4.06
4/30/2024, 11:06:42 AM		212						Charging				27.5				85			4.06
4/30/2024, 11:06:40 AM		212						Charging				27.5				85			4.06
4/30/2024, 11:06:39 AM		212						Charging				27.5				85			4.06
4/30/2024, 11:06:37 AM		212						Charging				27.5				85			4.06
4/30/2024, 11:06:35 AM		212						Charging				27.5				85			4.06
4/30/2024, 11:06:33 AM		212						Charging				27.5				85			4.06
4/30/2024, 11:06:32 AM		212						Charging				27.5				85			4.06
4/30/2024, 11:06:30 AM		212						Charging				27.5				85			4.06
4/30/2024, 11:06:28 AM		212						Charging				27.5				85			4.06
4/30/2024, 11:06:26 AM		212						Charging				27.5				85			4.06
4/30/2024, 11:06:25 AM		212						Charging				27.5				85			4.06
4/30/2024, 11:06:23 AM		212						Charging				27.5				85			4.06
4/30/2024, 11:06:21 AM		212						Charging				27.5				85			4.06
4/30/2024, 11:06:19 AM		212						Charging				27.5				85			4.06
4/30/2024, 11:06:18 AM		212						Charging				27.5				85			4.06
4/30/2024, 11:06:16 AM		212						Charging				27.5				85			4.06
4/30/2024, 11:06:14 AM		212						Charging				27.5				85			4.06
4/30/2024, 11:

Note: Project/Project_Code/server/README.md
// db.createUser({ user: 'skybms', pwd: '12345678', roles: [{ role: 'readWrite', db:'skybms'}] })
// mongosh -u skybms -p 12345678 --authenticationDatabase skybms


npm run build

npm install -g serve

serve -s build


ssh -i "sky_bms_server_key.pem" ec2-user@ec2-204-236-220-172.compute-1.amazonaws.com

File: data.txt
Time (hours)	Voltage (V)	Capacity (mAh)	Current (mA)
0	9.0	0	100
1	8.7	100	100
2	8.4	200	100
3	8.1	300	100
4	7.8	400	100
5	7.5	500	100
6	7.2	600	100
7	6.9	700	100
8	6.6	800	100
9	6.3	900	100
10	6.0	1000	100
11	5.7	1100	100
12	5.4	1200	100
13	5.1	1300	100
14	4.8	1400	100
15	4.5	1500	100
16	4.2	1600	100
17	3.9	1700	100
18	3.6	1800	100
19	3.3	1900	100
20	3.0	2000	100
21	2.7	2100	100
22	2.4	2200	100
23	2.1	2300	100
24	1.8	2400	100
25	1.5	2500	100
26	1.2	2600	100
27	0.9	2700	100
28	0.6	2800	100
29	0.3	2900	100
30	0.0	3000	0